<?xml version="1.0" encoding="UTF-8"?>
<Questionnaire
    xmlns="http://hl7.org/fhir">
    <id value="4953"/>
    <contained>
        <ValueSet>
            <id value="NHSNProcedureCategoryCode"/>
            <meta>
                <versionId value="1"/>
                <lastUpdated value="2017-09-19T14:42:22.572-04:00"/>
            </meta>
            <url value="urn:oid:2.16.840.1.113883.13.17"/>
            <name value="NHSNProcedureCategoryCode"/>
            <status value="active"/>
            <description value="Code System: cdcNHSN 2.16.840.1.113883.6.277&#xD;&#xA;&#xD;&#xA;NHSN's value set for the clinical statement recording procedure details in SSI, CLIP, and Procedure Reports.                                                &#xD;&#xA;&#xD;&#xA;The full table is shown in the hai_voc.xls file provided with this package."/>
            <compose>
                <include>
                    <system value="urn:oid:2.16.840.1.113883.6.277"/>
                    <concept>
                        <code value="2105-5"/>
                        <display value="Abdominal aortic aneurysm repair"/>
                    </concept>
                    <concept>
                        <code value="2107-1"/>
                        <display value="Abdominal hysterectomy"/>
                    </concept>
                    <concept>
                        <code value="2108-9"/>
                        <display value="Appendix surgery"/>
                    </concept>
                    <concept>
                        <code value="2102-2"/>
                        <display value="AV shunt for dialysis"/>
                    </concept>
                    <concept>
                        <code value="2109-7"/>
                        <display value="Bile duct, liver or pancreatic surgery"/>
                    </concept>
                    <concept>
                        <code value="2110-5"/>
                        <display value="Breast surgery"/>
                    </concept>
                    <concept>
                        <code value="2111-3"/>
                        <display value="Cardiac Surgery"/>
                    </concept>
                    <concept>
                        <code value="2114-7"/>
                        <display value="Carotid endarterectomy"/>
                    </concept>
                    <concept>
                        <code value="2115-4"/>
                        <display value="Cesarean section"/>
                    </concept>
                    <concept>
                        <code value="2116-2"/>
                        <display value="Colon surgery"/>
                    </concept>
                    <concept>
                        <code value="2112-1"/>
                        <display value="Coronary artery bypass graft with both chest and donor site incisions"/>
                    </concept>
                    <concept>
                        <code value="2113-9"/>
                        <display value="Coronary artery bypass graft with chest incision only"/>
                    </concept>
                    <concept>
                        <code value="2117-0"/>
                        <display value="Craniotomy"/>
                    </concept>
                    <concept>
                        <code value="2118-8"/>
                        <display value="Exploratory abdominal surgery"/>
                    </concept>
                    <concept>
                        <code value="2119-6"/>
                        <display value="Gallbladder surgery"/>
                    </concept>
                    <concept>
                        <code value="2120-4"/>
                        <display value="Gastric surgery"/>
                    </concept>
                    <concept>
                        <code value="2121-2"/>
                        <display value="Heart transplant"/>
                    </concept>
                    <concept>
                        <code value="2106-3"/>
                        <display value="Herniorrhaphy"/>
                    </concept>
                    <concept>
                        <code value="2101-4"/>
                        <display value="Hip Replacement"/>
                    </concept>
                    <concept>
                        <code value="2122-0"/>
                        <display value="Kidney surgery"/>
                    </concept>
                    <concept>
                        <code value="2123-8"/>
                        <display value="Kidney transplant"/>
                    </concept>
                    <concept>
                        <code value="2124-6"/>
                        <display value="Knee prosthesis"/>
                    </concept>
                    <concept>
                        <code value="2125-3"/>
                        <display value="Laminectomy"/>
                    </concept>
                    <concept>
                        <code value="2126-1"/>
                        <display value="Limb amputation"/>
                    </concept>
                    <concept>
                        <code value="2127-9"/>
                        <display value="Liver transplant"/>
                    </concept>
                    <concept>
                        <code value="2128-7"/>
                        <display value="Neck surgery"/>
                    </concept>
                    <concept>
                        <code value="2103-0"/>
                        <display value="Not an NHSN operation"/>
                    </concept>
                    <concept>
                        <code value="2129-5"/>
                        <display value="Open reduction of fracture"/>
                    </concept>
                    <concept>
                        <code value="2104-8"/>
                        <display value="Other operations"/>
                    </concept>
                    <concept>
                        <code value="2130-3"/>
                        <display value="Ovarian surgery"/>
                    </concept>
                    <concept>
                        <code value="2131-1"/>
                        <display value="Pacemaker surgery"/>
                    </concept>
                    <concept>
                        <code value="2132-9"/>
                        <display value="Peripheral vascular bypass surgery"/>
                    </concept>
                    <concept>
                        <code value="2133-7"/>
                        <display value="Prostate surgery"/>
                    </concept>
                    <concept>
                        <code value="2134-5"/>
                        <display value="Rectal surgery"/>
                    </concept>
                    <concept>
                        <code value="2135-2"/>
                        <display value="Refusion of spine"/>
                    </concept>
                    <concept>
                        <code value="2136-0"/>
                        <display value="Small bowel surgery"/>
                    </concept>
                    <concept>
                        <code value="2137-8"/>
                        <display value="Spinal fusion"/>
                    </concept>
                    <concept>
                        <code value="2138-6"/>
                        <display value="Spleen surgery"/>
                    </concept>
                    <concept>
                        <code value="2139-4"/>
                        <display value="Thoracic surgery"/>
                    </concept>
                    <concept>
                        <code value="2140-2"/>
                        <display value="Thyroid and/or parathyroid surgery"/>
                    </concept>
                    <concept>
                        <code value="2141-0"/>
                        <display value="Vaginal hysterectomy"/>
                    </concept>
                    <concept>
                        <code value="2142-8"/>
                        <display value="Ventricular shunt"/>
                    </concept>
                    <concept>
                        <code value="2102-2"/>
                        <display value="Shunt for dialysis"/>
                    </concept>
                </include>
            </compose>
        </ValueSet>
    </contained>
    <contained>
        <ValueSet>
            <id value="NHSNPathogenCode"/>
            <meta>
                <versionId value="1"/>
                <lastUpdated value="2017-09-19T17:46:47.015-04:00"/>
            </meta>
            <url value="http://hl7.org/fhir/us/hai/ValueSet/nhsn-pathogen-code"/>
            <name value="NHSNPathogenCode"/>
            <status value="active"/>
            <description value="Code System: SNOMED CT 2.16.840.1.113883.6.96 or cdcNHSN 2.16.840.1.113883.6.277&#xA;&#xA;A full listing of codes can be found in the hai_voc.xls file provided with this package."/>
            <compose>
                <include>
                    <system value="urn:oid:2.16.840.1.113883.6.96"/>
                    <concept>
                        <code value="50471002"/>
                        <display value="Zika virus (organism)"/>
                    </concept>
                    <concept>
                        <code value="2423009"/>
                        <display value="Chikungunya virus (organism)"/>
                    </concept>
                </include>
            </compose>
        </ValueSet>
    </contained>
    <contained>
        <ValueSet>
            <id value="NHSNDrugSusceptibilityTestsCode"/>
            <meta>
                <versionId value="1"/>
                <lastUpdated value="2017-09-19T17:47:25.946-04:00"/>
            </meta>
            <url value="http://hl7.org/fhir/us/hai/ValueSet/nhsn-drug-susceptibility-tests-code"/>
            <name value="NHSNDrugSusceptibilityTestsCode"/>
            <status value="active"/>
            <description value="Code System: LOINC 2.16.840.1.113883.6.1 or cdcNHSN 2.16.840.1.113883.6.277&#xA;&#xA;A full listing of codes can be found in the hai_voc.xls file provided with this package."/>
            <compose>
                <include>
                    <system value="urn:oid:2.16.840.1.113883.6.1"/>
                    <concept>
                        <code value="18855-7"/>
                        <display value="5-fluorocytosine Susc Islt"/>
                    </concept>
                    <concept>
                        <code value="18860-7"/>
                        <display value="Amikacin Susc Islt"/>
                    </concept>
                    <concept>
                        <code value="18862-3"/>
                        <display value="Amoxicillin+Clav Susc Islt"/>
                    </concept>
                    <concept>
                        <code value="18864-9"/>
                        <display value="Ampicillin Susc Islt"/>
                    </concept>
                    <concept>
                        <code value="18865-6"/>
                        <display value="Ampicillin+Sulbac Susc Islt"/>
                    </concept>
                    <concept>
                        <code value="57095-2"/>
                        <display value="Anidulafungin Susc Islt"/>
                    </concept>
                    <concept>
                        <code value="18866-4"/>
                        <display value="Azithromycin Susc Islt"/>
                    </concept>
                    <concept>
                        <code value="18868-0"/>
                        <display value="Aztreonam Susc Islt"/>
                    </concept>
                    <concept>
                        <code value="32378-2"/>
                        <display value="Caspofungin Susc Islt"/>
                    </concept>
                    <concept>
                        <code value="18878-9"/>
                        <display value="Cefazolin Susc Islt"/>
                    </concept>
                    <concept>
                        <code value="18879-7"/>
                        <display value="Cefepime Susc Islt"/>
                    </concept>
                    <concept>
                        <code value="18886-2"/>
                        <display value="Cefotaxime Susc Islt"/>
                    </concept>
                    <concept>
                        <code value="18887-0"/>
                        <display value="Cefotetan Susc Islt"/>
                    </concept>
                    <concept>
                        <code value="18888-8"/>
                        <display value="Cefoxitin Susc Islt"/>
                    </concept>
                    <concept>
                        <code value="18893-8"/>
                        <display value="Ceftazidime Susc Islt"/>
                    </concept>
                    <concept>
                        <code value="18895-3"/>
                        <display value="Ceftriaxone Susc Islt"/>
                    </concept>
                    <concept>
                        <code value="35783-0"/>
                        <display value="Cefuroxime Oral Susc Islt"/>
                    </concept>
                    <concept>
                        <code value="18900-1"/>
                        <display value="Cephalothin Susc Islt"/>
                    </concept>
                    <concept>
                        <code value="18903-5"/>
                        <display value="Chloramphen Susc Islt"/>
                    </concept>
                    <concept>
                        <code value="18906-8"/>
                        <display value="Ciprofloxacin Susc Islt"/>
                    </concept>
                    <concept>
                        <code value="18907-6"/>
                        <display value="Clarithro Susc Islt"/>
                    </concept>
                    <concept>
                        <code value="18908-4"/>
                        <display value="Clindamycin Susc Islt"/>
                    </concept>
                    <concept>
                        <code value="18912-6"/>
                        <display value="Colistin Susc Islt"/>
                    </concept>
                    <concept>
                        <code value="35789-7"/>
                        <display value="Daptomycin Susc Islt"/>
                    </concept>
                    <concept>
                        <code value="60535-2"/>
                        <display value="Doripenem Susc Islt"/>
                    </concept>
                    <concept>
                        <code value="18917-5"/>
                        <display value="Doxycycline Susc Islt"/>
                    </concept>
                    <concept>
                        <code value="35802-8"/>
                        <display value="Ertapenem Susc Islt"/>
                    </concept>
                    <concept>
                        <code value="18919-1"/>
                        <display value="Erythromycin Susc Islt"/>
                    </concept>
                    <concept>
                        <code value="18924-1"/>
                        <display value="Fluconazole Susc Islt"/>
                    </concept>
                    <concept>
                        <code value="31038-3"/>
                        <display value="Gatifloxacin Susc Islt"/>
                    </concept>
                    <concept>
                        <code value="18928-2"/>
                        <display value="Gentamicin Susc Islt"/>
                    </concept>
                    <concept>
                        <code value="18929-0"/>
                        <display value="Gentamicin Synergy Susc Islt"/>
                    </concept>
                    <concept>
                        <code value="18932-4"/>
                        <display value="Imipenem Susc Islt"/>
                    </concept>
                    <concept>
                        <code value="32603-3"/>
                        <display value="Itraconaz Susc Islt"/>
                    </concept>
                    <concept>
                        <code value="20629-2"/>
                        <display value="L-Floxacin Susc Islt"/>
                    </concept>
                    <concept>
                        <code value="29258-1"/>
                        <display value="Linezolid Susc Islt"/>
                    </concept>
                    <concept>
                        <code value="18943-1"/>
                        <display value="Meropenem Susc Islt"/>
                    </concept>
                    <concept>
                        <code value="18945-6"/>
                        <display value="Methicillin Susc Islt"/>
                    </concept>
                    <concept>
                        <code value="18946-4"/>
                        <display value="Metronidazole Susc Islt"/>
                    </concept>
                    <concept>
                        <code value="18948-0"/>
                        <display value="Minocycline Susc Islt"/>
                    </concept>
                    <concept>
                        <code value="31039-1"/>
                        <display value="Moxifloxacin Susc Islt"/>
                    </concept>
                    <concept>
                        <code value="18959-7"/>
                        <display value="Ofloxacin Susc Islt"/>
                    </concept>
                    <concept>
                        <code value="18961-3"/>
                        <display value="Oxacillin Susc Islt"/>
                    </concept>
                    <concept>
                        <code value="18965-4"/>
                        <display value="Penicillin G Susc Islt"/>
                    </concept>
                    <concept>
                        <code value="18969-6"/>
                        <display value="Piperacillin Susc Islt"/>
                    </concept>
                    <concept>
                        <code value="18970-4"/>
                        <display value="Piperacillin+Tazobac Susc Islt"/>
                    </concept>
                    <concept>
                        <code value="18972-0"/>
                        <display value="Polymyxin B Susc Islt"/>
                    </concept>
                    <concept>
                        <code value="23640-6"/>
                        <display value="Quinupristin+Dalfoprist Susc Islt"/>
                    </concept>
                    <concept>
                        <code value="18974-6"/>
                        <display value="Rifampin Susc Islt"/>
                    </concept>
                    <concept>
                        <code value="18983-7"/>
                        <display value="Streptomycin High Pot Susc Islt"/>
                    </concept>
                    <concept>
                        <code value="18993-6"/>
                        <display value="Tetracycline Susc Islt"/>
                    </concept>
                    <concept>
                        <code value="18994-4"/>
                        <display value="Ticarcillin Susc Islt"/>
                    </concept>
                    <concept>
                        <code value="18995-1"/>
                        <display value="Ticarcillin+Clav Susc Islt"/>
                    </concept>
                    <concept>
                        <code value="42357-4"/>
                        <display value="Tigecycline Susc Islt"/>
                    </concept>
                    <concept>
                        <code value="18998-5"/>
                        <display value="TMP SMX Susc Islt"/>
                    </concept>
                    <concept>
                        <code value="18996-9"/>
                        <display value="Tobramycin Susc Islt"/>
                    </concept>
                    <concept>
                        <code value="19000-9"/>
                        <display value="Vancomycin Susc Islt"/>
                    </concept>
                    <concept>
                        <code value="32379-0"/>
                        <display value="Voriconazole Susc Islt"/>
                    </concept>
                    <concept>
                        <code value="18955-5"/>
                        <display value="Nitrofurantoin"/>
                    </concept>
                    <concept>
                        <code value="18861-5"/>
                        <display value="Amoxicillin Susc Islt"/>
                    </concept>
                    <concept>
                        <code value="35816-8 "/>
                        <display value="Gemifloxacin Susc Islt"/>
                    </concept>
                    <concept>
                        <code value="18939-9"/>
                        <display value="Lomefloxacin Susc Islt"/>
                    </concept>
                    <concept>
                        <code value="18956-3"/>
                        <display value="Norfloxacin Susc Islt"/>
                    </concept>
                    <concept>
                        <code value="18966-2"/>
                        <display value="Penicillin V Susc Islt"/>
                    </concept>
                    <concept>
                        <code value="54188-8 "/>
                        <display value="Posaconazole Susc Islt"/>
                    </concept>
                    <concept>
                        <code value="18982-9 "/>
                        <display value="Streptomycin Susc Islt"/>
                    </concept>
                    <concept>
                        <code value="18986-0"/>
                        <display value="Sulfisoxaz Susc Islt"/>
                    </concept>
                    <concept>
                        <code value="35845-7 "/>
                        <display value="Telithromycin Susc Islt"/>
                    </concept>
                    <concept>
                        <code value="18997-7"/>
                        <display value="Trimethoprim Susc Islt"/>
                    </concept>
                </include>
                <include>
                    <system value="urn:oid:2.16.840.1.113883.6.277"/>
                    <concept>
                        <code value="2526-2"/>
                        <display value="Micafungin Susc Islt"/>
                    </concept>
                </include>
            </compose>
        </ValueSet>
    </contained>
    <contained>
        <ValueSet>
            <id value="NHSNDrugSusceptibilityFindingCode"/>
            <meta>
                <versionId value="1"/>
                <lastUpdated value="2017-09-19T17:56:58.041-04:00"/>
            </meta>
            <url value="http://hl7.org/fhir/us/hai/ValueSet/nhsn-drug-susceptibility-finding-code"/>
            <name value="NHSNDrugSusceptibilityFindingCode"/>
            <status value="active"/>
            <description value="Code System: HL7ObservationInterpretation 2.16.840.1.113883.5.83&#xA;&#xA;A full listing of codes can be found in the hai_voc.xls file provided with this package."/>
            <compose>
                <include>
                    <system value="urn:oid:2.16.840.1.113883.5.83"/>
                    <concept>
                        <code value="I"/>
                        <display value="Intermediate"/>
                    </concept>
                    <concept>
                        <code value="R"/>
                        <display value="Resistant"/>
                    </concept>
                    <concept>
                        <code value="S"/>
                        <display value="Susceptible"/>
                    </concept>
                    <concept>
                        <code value="NS"/>
                        <display value="Non-Susceptible"/>
                    </concept>
                    <concept>
                        <code value="S-DD"/>
                        <display value="Susceptible-dose dependant"/>
                    </concept>
                </include>
            </compose>
        </ValueSet>
    </contained>
    <contained>
        <ValueSet>
            <id value="nhsn-healthcare-service-location-code"/>
            <meta id="41"/>
            <url value="http://hl7.org/fhir/us/hai/ValueSet/nhsn-healthcare-service-location-code"/>
            <name value="NHSNHealthcareServiceLocationCode"/>
            <status value="active"/>
            <description
                value="A classification of patient care locations within healthcare facilities for public health surveillance purposes.&#xA;&#xA;A full listing of codes can be found in the hai_voc.xls file provided with this package."/>
            <compose>
                <include>
                    <system value="urn:oid:2.16.840.1.113883.6.259"/>
                    <concept>
                        <code value="1250-0"/>
                        <display value="All Inpatient Locations [FACWIDEIN]"/>
                    </concept>
                    <concept>
                        <code value="1251-8"/>
                        <display value="All Outpatient Locations [FACWIDEOUT]"/>
                    </concept>
                    <concept>
                        <code value="1025-6"/>
                        <display value="Trauma Critical Care"/>
                    </concept>
                    <concept>
                        <code value="1026-4"/>
                        <display value="Burn Critical Care"/>
                    </concept>
                    <concept>
                        <code value="1027-2"/>
                        <display value="Medical Critical Care"/>
                    </concept>
                    <concept>
                        <code value="1028-0"/>
                        <display value="Medical Cardiac Critical Care"/>
                    </concept>
                    <concept>
                        <code value="1029-8"/>
                        <display value="Medical/Surgical Critical Care"/>
                    </concept>
                    <concept>
                        <code value="1030-6"/>
                        <display value="Surgical Critical Care"/>
                    </concept>
                    <concept>
                        <code value="1031-4"/>
                        <display value="Neurosurgical Critical Care"/>
                    </concept>
                    <concept>
                        <code value="1032-2"/>
                        <display value="Surgical Cardiothoracic Critical Care"/>
                    </concept>
                    <concept>
                        <code value="1033-0"/>
                        <display value="Respiratory Critical Care"/>
                    </concept>
                    <concept>
                        <code value="1034-8"/>
                        <display value="Prenatal Critical Care"/>
                    </concept>
                    <concept>
                        <code value="1035-5"/>
                        <display value="Neurologic Critical Care"/>
                    </concept>
                    <concept>
                        <code value="1038-9"/>
                        <display value="Inpatient Well Baby Nursery (Level I)"/>
                    </concept>
                    <concept>
                        <code value="1039-7"/>
                        <display value="Neonatal Critical Care(Level II/III)"/>
                    </concept>
                    <concept>
                        <code value="1040-5"/>
                        <display value="Neonatal Critical Care (Level III)"/>
                    </concept>
                    <concept>
                        <code value="1041-3"/>
                        <display value="Step down Neonatal ICU (Level II)"/>
                    </concept>
                    <concept>
                        <code value="1042-1"/>
                        <display value="Pediatric Burn Critical Care"/>
                    </concept>
                    <concept>
                        <code value="1043-9"/>
                        <display value="Pediatric Cardiothoracic Critical Care"/>
                    </concept>
                    <concept>
                        <code value="1044-7"/>
                        <display value="Pediatric Medical Critical Care"/>
                    </concept>
                    <concept>
                        <code value="1045-4"/>
                        <display value="Pediatric Medical/Surgical Critical Care"/>
                    </concept>
                    <concept>
                        <code value="1046-2"/>
                        <display value="Pediatric Neurosurgical Critical Care"/>
                    </concept>
                    <concept>
                        <code value="1047-0"/>
                        <display value="Pediatric Respiratory Critical Care"/>
                    </concept>
                    <concept>
                        <code value="1048-8"/>
                        <display value="Pediatric Surgical Critical Care"/>
                    </concept>
                    <concept>
                        <code value="1049-6"/>
                        <display value="Pediatric Trauma Critical Care"/>
                    </concept>
                    <concept>
                        <code value="1022-3"/>
                        <display value="Bone Marrow Transplant SCA"/>
                    </concept>
                    <concept>
                        <code value="1023-1"/>
                        <display value="Pediatric Bone Marrow Transplant SCA"/>
                    </concept>
                    <concept>
                        <code value="1088-4"/>
                        <display value="Hematology/Oncology SCA"/>
                    </concept>
                    <concept>
                        <code value="1089-2"/>
                        <display value="Pediatric Hematology/Oncology SCA"/>
                    </concept>
                    <concept>
                        <code value="1091-8"/>
                        <display value="Pediatric Dialysis SCA"/>
                    </concept>
                    <concept>
                        <code value="1092-6"/>
                        <display value="Solid Organ Transplant SCA"/>
                    </concept>
                    <concept>
                        <code value="1093-4"/>
                        <display value="Pediatric Solid Organ Transplant SCA"/>
                    </concept>
                    <concept>
                        <code value="1198-1"/>
                        <display value="Inpatient Acute Dialysis SCA"/>
                    </concept>
                    <concept>
                        <code value="1051-2"/>
                        <display value="Inpatient Behavioral Health/Psych Ward"/>
                    </concept>
                    <concept>
                        <code value="1052-0"/>
                        <display value="Inpatient Burn Ward"/>
                    </concept>
                    <concept>
                        <code value="1053-8"/>
                        <display value="Inpatient Ear/Nose/Throat Ward"/>
                    </concept>
                    <concept>
                        <code value="1054-6"/>
                        <display value="Inpatient Gastrointestinal Ward"/>
                    </concept>
                    <concept>
                        <code value="1055-3"/>
                        <display value="Inpatient Genitourinary Ward"/>
                    </concept>
                    <concept>
                        <code value="1056-1"/>
                        <display value="Inpatient Gerontology Ward"/>
                    </concept>
                    <concept>
                        <code value="1057-9"/>
                        <display value="Inpatient Gynecology Ward"/>
                    </concept>
                    <concept>
                        <code value="1058-7"/>
                        <display value="Labor and Delivery Ward"/>
                    </concept>
                    <concept>
                        <code value="1059-5"/>
                        <display value="Labor, Delivery, Recovery, Postpartum Suite (LDRP)"/>
                    </concept>
                    <concept>
                        <code value="1060-3"/>
                        <display value="Inpatient Medical Ward"/>
                    </concept>
                    <concept>
                        <code value="1061-1"/>
                        <display value="Inpatient Medical/Surgical Ward"/>
                    </concept>
                    <concept>
                        <code value="1062-9"/>
                        <display value="Inpatient Neurology Ward"/>
                    </concept>
                    <concept>
                        <code value="1063-7"/>
                        <display value="Inpatient Neurosurgical Ward"/>
                    </concept>
                    <concept>
                        <code value="1064-5"/>
                        <display value="Inpatient Ophthalmology Ward"/>
                    </concept>
                    <concept>
                        <code value="1065-2"/>
                        <display value="Inpatient Orthopedic Ward"/>
                    </concept>
                    <concept>
                        <code value="1066-0"/>
                        <display value="Inpatient Orthopedic Trauma Ward"/>
                    </concept>
                    <concept>
                        <code value="1067-8"/>
                        <display value="Inpatient Plastic Surgery Ward"/>
                    </concept>
                    <concept>
                        <code value="1068-6"/>
                        <display value="Inpatient Postpartum Ward"/>
                    </concept>
                    <concept>
                        <code value="1069-4"/>
                        <display value="Inpatient Pulmonary Ward"/>
                    </concept>
                    <concept>
                        <code value="1070-2"/>
                        <display value="Inpatient Rehabilitation Ward"/>
                    </concept>
                    <concept>
                        <code value="1071-0"/>
                        <display value="Acute Stroke Ward"/>
                    </concept>
                    <concept>
                        <code value="1072-8"/>
                        <display value="Inpatient Surgical Ward"/>
                    </concept>
                    <concept>
                        <code value="1073-6"/>
                        <display value="Inpatient Vascular Surgery Ward"/>
                    </concept>
                    <concept>
                        <code value="1171-8"/>
                        <display value="Inpatient Jail Unit"/>
                    </concept>
                    <concept>
                        <code value="1172-6"/>
                        <display value="Inpatient School Infirmary"/>
                    </concept>
                    <concept>
                        <code value="1205-4"/>
                        <display value="Inpatient Antenatal Ward"/>
                    </concept>
                    <concept>
                        <code value="1075-1"/>
                        <display value="Inpatient Adolescent Behavioral Health Ward"/>
                    </concept>
                    <concept>
                        <code value="1076-9"/>
                        <display value="Inpatient Medical Pediatric Ward"/>
                    </concept>
                    <concept>
                        <code value="1077-7"/>
                        <display value="Inpatient Pediatric Behavioral Health Ward"/>
                    </concept>
                    <concept>
                        <code value="1078-5"/>
                        <display value="Inpatient Pediatric Burn Ward"/>
                    </concept>
                    <concept>
                        <code value="1079-3"/>
                        <display value="Inpatient Pediatric Ear, Nose, Throat Ward"/>
                    </concept>
                    <concept>
                        <code value="1080-1"/>
                        <display value="Inpatient Pediatric Genitourinary Ward"/>
                    </concept>
                    <concept>
                        <code value="1081-9"/>
                        <display value="Inpatient Pediatric Med/Surg Ward"/>
                    </concept>
                    <concept>
                        <code value="1082-7"/>
                        <display value="Inpatient Pediatric Neurology Ward"/>
                    </concept>
                    <concept>
                        <code value="1083-5"/>
                        <display value="Inpatient Pediatric Neurosurgical Ward"/>
                    </concept>
                    <concept>
                        <code value="1084-3"/>
                        <display value="Inpatient Pediatric Orthopedic Ward"/>
                    </concept>
                    <concept>
                        <code value="1085-0"/>
                        <display value="Pediatric Rehabilitation Ward - Within ACH"/>
                    </concept>
                    <concept>
                        <code value="1086-8"/>
                        <display value="Inpatient Pediatric Surgical Ward"/>
                    </concept>
                    <concept>
                        <code value="1099-1"/>
                        <display value="Adult Step Down Unit (post-critical care)"/>
                    </concept>
                    <concept>
                        <code value="1100-7"/>
                        <display value="Pediatric Step Down Unit (post-critical care)"/>
                    </concept>
                    <concept>
                        <code value="1005-8"/>
                        <display value="Cardiac Catheterization Room/Suite"/>
                    </concept>
                    <concept>
                        <code value="1095-9"/>
                        <display value="Cesarean Section Room/Suite"/>
                    </concept>
                    <concept>
                        <code value="1096-7"/>
                        <display value="Inpatient Operating Room/Suite"/>
                    </concept>
                    <concept>
                        <code value="1097-5"/>
                        <display value="Post-Anesthesia Care Unit/Recovery Room"/>
                    </concept>
                    <concept>
                        <code value="1203-9"/>
                        <display value="Interventional Radiology"/>
                    </concept>
                    <concept>
                        <code value="1009-0"/>
                        <display value="Pulmonary Function Testing"/>
                    </concept>
                    <concept>
                        <code value="1020-7"/>
                        <display value="Sleep Studies (for in- and outpatients)"/>
                    </concept>
                    <concept>
                        <code value="1178-3"/>
                        <display value="Transport Service"/>
                    </concept>
                    <concept>
                        <code value="1190-8"/>
                        <display value="Soiled Utility Area"/>
                    </concept>
                    <concept>
                        <code value="1208-8"/>
                        <display value="Telemetry Unit"/>
                    </concept>
                    <concept>
                        <code value="1209-6"/>
                        <display value="Treatment Room"/>
                    </concept>
                    <concept>
                        <code value="1211-2"/>
                        <display value="Pediatric Mixed Acuity Unit"/>
                    </concept>
                    <concept>
                        <code value="1210-4"/>
                        <display value="Adult Mixed Acuity Unit"/>
                    </concept>
                    <concept>
                        <code value="1212-0"/>
                        <display value="Any Age Mixed Acuity Unit"/>
                    </concept>
                    <concept>
                        <code value="1102-3"/>
                        <display value="Long-Term Care Unit"/>
                    </concept>
                    <concept>
                        <code value="1103-1"/>
                        <display value="Long-Term Care Alzheimer's Unit"/>
                    </concept>
                    <concept>
                        <code value="1104-9"/>
                        <display value="Long-Term Care Behavioral Health/Psych Unit"/>
                    </concept>
                    <concept>
                        <code value="1105-6"/>
                        <display value="Long-Term Care Rehabilitation Unit"/>
                    </concept>
                    <concept>
                        <code value="1164-3"/>
                        <display value="Ventilator Dependent Unit"/>
                    </concept>
                    <concept>
                        <code value="1165-0"/>
                        <display value="Inpatient Hospice"/>
                    </concept>
                    <concept>
                        <code value="1260-9"/>
                        <display value="LTCF Bariatric Unit"/>
                    </concept>
                    <concept>
                        <code value="1255-9"/>
                        <display value="LTCF Dementia Unit"/>
                    </concept>
                    <concept>
                        <code value="1258-3"/>
                        <display value="LTCF General Nursing Unit"/>
                    </concept>
                    <concept>
                        <code value="1254-2"/>
                        <display value="LTCF Inpatient Hospice Unit"/>
                    </concept>
                    <concept>
                        <code value="1256-7"/>
                        <display value="LTCF Psychiatric Unit"/>
                    </concept>
                    <concept>
                        <code value="1257-5"/>
                        <display value="LTCF Skilled Nursing/Short Term Rehabilitation Unit"/>
                    </concept>
                    <concept>
                        <code value="1259-1"/>
                        <display value="LTCF Ventilator Dependent Unit"/>
                    </concept>
                    <concept>
                        <code value="1220-3"/>
                        <display value="LTAC ICU"/>
                    </concept>
                    <concept>
                        <code value="1221-1"/>
                        <display value="LTAC Ward"/>
                    </concept>
                    <concept>
                        <code value="1222-9"/>
                        <display value="LTAC Pediatric ICU"/>
                    </concept>
                    <concept>
                        <code value="1214-6"/>
                        <display value="LTAC Pediatric Ward"/>
                    </concept>
                    <concept>
                        <code value="1217-9"/>
                        <display value="Rehabilitation Ward - Freestanding IRF"/>
                    </concept>
                    <concept>
                        <code value="1218-7"/>
                        <display value="Rehabilitation Pediatric Ward - Freestanding IRF"/>
                    </concept>
                    <concept>
                        <code value="1108-0"/>
                        <display value="Emergency Department"/>
                    </concept>
                    <concept>
                        <code value="1109-8"/>
                        <display value="Pediatric Emergency Department"/>
                    </concept>
                    <concept>
                        <code value="1160-1"/>
                        <display value="Urgent Care Center"/>
                    </concept>
                    <concept>
                        <code value="1162-7"/>
                        <display value="24-Hour Observation Area"/>
                    </concept>
                    <concept>
                        <code value="1169-2"/>
                        <display value="Outpatient Surgery Recovery Room/Post-Anesthesia Care Unit"/>
                    </concept>
                    <concept>
                        <code value="1174-2"/>
                        <display value="Mobile Emergency Services/EMS"/>
                    </concept>
                    <concept>
                        <code value="1007-4"/>
                        <display value="Endoscopy Suite"/>
                    </concept>
                    <concept>
                        <code value="1008-2"/>
                        <display value="Radiology (includes Nuclear Medicine)"/>
                    </concept>
                    <concept>
                        <code value="1017-3"/>
                        <display value="Hyperbaric Oxygen Center"/>
                    </concept>
                    <concept>
                        <code value="1018-1"/>
                        <display value="Infusion Center"/>
                    </concept>
                    <concept>
                        <code value="1019-9"/>
                        <display value="Specimen Collection Area (Healthcare)"/>
                    </concept>
                    <concept>
                        <code value="1110-6"/>
                        <display value="Allergy Clinic"/>
                    </concept>
                    <concept>
                        <code value="1112-2"/>
                        <display value="Cardiac Rehabilitation Center"/>
                    </concept>
                    <concept>
                        <code value="1113-0"/>
                        <display value="Cardiology Clinic"/>
                    </concept>
                    <concept>
                        <code value="1115-5"/>
                        <display value="Dermatology Clinic"/>
                    </concept>
                    <concept>
                        <code value="1116-3"/>
                        <display value="Diabetes/Endocrinology Clinic"/>
                    </concept>
                    <concept>
                        <code value="1117-1"/>
                        <display value="Family Medicine Clinic"/>
                    </concept>
                    <concept>
                        <code value="1118-9"/>
                        <display value="Outpatient Gastrointestinal (GI) Clinic"/>
                    </concept>
                    <concept>
                        <code value="1119-7"/>
                        <display value="Pediatric Gastrointestinal Clinic"/>
                    </concept>
                    <concept>
                        <code value="1120-5"/>
                        <display value="Outpatient Medical Clinic"/>
                    </concept>
                    <concept>
                        <code value="1121-3"/>
                        <display value="Gynecology Clinic"/>
                    </concept>
                    <concept>
                        <code value="1122-1"/>
                        <display value="Genetics Clinic"/>
                    </concept>
                    <concept>
                        <code value="1123-9"/>
                        <display value="Neurology Clinic"/>
                    </concept>
                    <concept>
                        <code value="1124-7"/>
                        <display value="Ophthalmology Clinic"/>
                    </concept>
                    <concept>
                        <code value="1125-4"/>
                        <display value="Orthopedic Clinic"/>
                    </concept>
                    <concept>
                        <code value="1126-2"/>
                        <display value="Ear, Nose, Throat Clinic"/>
                    </concept>
                    <concept>
                        <code value="1127-0"/>
                        <display value="Pain Clinic"/>
                    </concept>
                    <concept>
                        <code value="1128-8"/>
                        <display value="Pediatric Clinic"/>
                    </concept>
                    <concept>
                        <code value="1129-6"/>
                        <display value="Pediatric Cardiology Center"/>
                    </concept>
                    <concept>
                        <code value="1130-4"/>
                        <display value="Pediatric Dental Clinic"/>
                    </concept>
                    <concept>
                        <code value="1131-2"/>
                        <display value="Pediatric Dermatology Clinic"/>
                    </concept>
                    <concept>
                        <code value="1132-0"/>
                        <display value="Pediatric Diabetes/Endocrinology Clinic"/>
                    </concept>
                    <concept>
                        <code value="1133-8"/>
                        <display value="Pediatric Orthopedic Clinic"/>
                    </concept>
                    <concept>
                        <code value="1134-6"/>
                        <display value="Pediatric Scoliosis Clinic"/>
                    </concept>
                    <concept>
                        <code value="1136-1"/>
                        <display value="Pediatric Hematology/Oncology Clinic"/>
                    </concept>
                    <concept>
                        <code value="1137-9"/>
                        <display value="Pediatric Nephrology Clinic"/>
                    </concept>
                    <concept>
                        <code value="1138-7"/>
                        <display value="Pediatric Rheumatology Clinic"/>
                    </concept>
                    <concept>
                        <code value="1139-5"/>
                        <display value="Well Baby Clinic"/>
                    </concept>
                    <concept>
                        <code value="1140-3"/>
                        <display value="Podiatry Clinic"/>
                    </concept>
                    <concept>
                        <code value="1141-1"/>
                        <display value="Physician's Office"/>
                    </concept>
                    <concept>
                        <code value="1142-9"/>
                        <display value="Rheumatology Clinic"/>
                    </concept>
                    <concept>
                        <code value="1143-7"/>
                        <display value="Surgical Services Clinic"/>
                    </concept>
                    <concept>
                        <code value="1144-5"/>
                        <display value="Wound Center"/>
                    </concept>
                    <concept>
                        <code value="1145-2"/>
                        <display value="Behavioral Health Clinic"/>
                    </concept>
                    <concept>
                        <code value="1146-0"/>
                        <display value="Pediatric Behavioral Health Clinic"/>
                    </concept>
                    <concept>
                        <code value="1147-8"/>
                        <display value="Blood Collection Center"/>
                    </concept>
                    <concept>
                        <code value="1148-6"/>
                        <display value="Continence Clinic"/>
                    </concept>
                    <concept>
                        <code value="1149-4"/>
                        <display value="Ostomy Clinic"/>
                    </concept>
                    <concept>
                        <code value="1150-2"/>
                        <display value="Outpatient Dental Clinic"/>
                    </concept>
                    <concept>
                        <code value="1151-0"/>
                        <display value="Occupational Health Clinic"/>
                    </concept>
                    <concept>
                        <code value="1152-8"/>
                        <display value="Occupational Therapy Clinic"/>
                    </concept>
                    <concept>
                        <code value="1153-6"/>
                        <display value="Outpatient Hemodialysis Clinic"/>
                    </concept>
                    <concept>
                        <code value="1154-4"/>
                        <display value="Outpatient HIV Clinic"/>
                    </concept>
                    <concept>
                        <code value="1155-1"/>
                        <display value="Outpatient Rehabilitation Clinic"/>
                    </concept>
                    <concept>
                        <code value="1156-9"/>
                        <display value="Prenatal Clinic"/>
                    </concept>
                    <concept>
                        <code value="1157-7"/>
                        <display value="Pulmonary Clinic"/>
                    </concept>
                    <concept>
                        <code value="1158-5"/>
                        <display value="Speech Therapy Clinic"/>
                    </concept>
                    <concept>
                        <code value="1159-3"/>
                        <display value="Wound Ostomy Continence Clinic"/>
                    </concept>
                    <concept>
                        <code value="1161-9"/>
                        <display value="Holistic Medicine Center"/>
                    </concept>
                    <concept>
                        <code value="1170-0"/>
                        <display value="School or Prison Infirmary"/>
                    </concept>
                    <concept>
                        <code value="1175-9"/>
                        <display value="Mobile MRI/CT"/>
                    </concept>
                    <concept>
                        <code value="1176-7"/>
                        <display value="Mobile Blood Collection center"/>
                    </concept>
                    <concept>
                        <code value="1200-5"/>
                        <display value="Outpatient Hematology/Oncology Clinic"/>
                    </concept>
                    <concept>
                        <code value="1202-1"/>
                        <display value="Physical Therapy Clinic"/>
                    </concept>
                    <concept>
                        <code value="1207-0"/>
                        <display value="Donor Apheresis Center"/>
                    </concept>
                    <concept>
                        <code value="1192-4"/>
                        <display value="Home Care"/>
                    </concept>
                    <concept>
                        <code value="1194-0"/>
                        <display value="Home-based Hospice"/>
                    </concept>
                    <concept>
                        <code value="1195-7"/>
                        <display value="Blood Collection (Blood Drive Campaign)"/>
                    </concept>
                    <concept>
                        <code value="1196-5"/>
                        <display value="Specimen Collection Area (Community)"/>
                    </concept>
                    <concept>
                        <code value="1204-7"/>
                        <display value="Location outside facility"/>
                    </concept>
                    <concept>
                        <code value="1262-1"/>
                        <display value="Home Care -  Dialysis"/>
                    </concept>
                    <concept>
                        <code value="1010-8"/>
                        <display value="General Laboratory"/>
                    </concept>
                    <concept>
                        <code value="1011-6"/>
                        <display value="Clinical Chemistry"/>
                    </concept>
                    <concept>
                        <code value="1012-4"/>
                        <display value="Hematology"/>
                    </concept>
                    <concept>
                        <code value="1013-2"/>
                        <display value="Histology/Surgical Pathology"/>
                    </concept>
                    <concept>
                        <code value="1014-0"/>
                        <display value="Microbiology"/>
                    </concept>
                    <concept>
                        <code value="1015-7"/>
                        <display value="Serology Lab"/>
                    </concept>
                    <concept>
                        <code value="1016-5"/>
                        <display value="Virology Lab"/>
                    </concept>
                    <concept>
                        <code value="1106-4"/>
                        <display value="Assisted Living Area"/>
                    </concept>
                    <concept>
                        <code value="1179-1"/>
                        <display value="Pharmacy"/>
                    </concept>
                    <concept>
                        <code value="1180-9"/>
                        <display value="Public Area in Facility"/>
                    </concept>
                    <concept>
                        <code value="1181-7"/>
                        <display value="Physical Plant Operations Center"/>
                    </concept>
                    <concept>
                        <code value="1182-5"/>
                        <display value="Housekeeping/Environmental Services"/>
                    </concept>
                    <concept>
                        <code value="1183-3"/>
                        <display value="Laundry Room"/>
                    </concept>
                    <concept>
                        <code value="1184-1"/>
                        <display value="Administrative Areas"/>
                    </concept>
                    <concept>
                        <code value="1185-8"/>
                        <display value="Blood Bank"/>
                    </concept>
                    <concept>
                        <code value="1186-6"/>
                        <display value="Central Sterile Supply"/>
                    </concept>
                    <concept>
                        <code value="1187-4"/>
                        <display value="Central Trash Area"/>
                    </concept>
                    <concept>
                        <code value="1188-2"/>
                        <display value="Facility Grounds"/>
                    </concept>
                    <concept>
                        <code value="1189-0"/>
                        <display value="Morgue/Autopsy Room"/>
                    </concept>
                    <concept>
                        <code value="1261-7"/>
                        <display value="Centralized Transfusion Service"/>
                    </concept>
                    <concept>
                        <code value="1223-7"/>
                        <display value="ONC Medical Critical Care"/>
                    </concept>
                    <concept>
                        <code value="1224-5"/>
                        <display value="ONC Surgical Critical Care"/>
                    </concept>
                    <concept>
                        <code value="1225-2"/>
                        <display value="ONC Medical-Surgical Critical Care"/>
                    </concept>
                    <concept>
                        <code value="1226-0"/>
                        <display value="ONC Leukemia Ward"/>
                    </concept>
                    <concept>
                        <code value="1228-6"/>
                        <display value="ONC Lymphoma Ward"/>
                    </concept>
                    <concept>
                        <code value="1229-4"/>
                        <display value="ONC Leukemia/Lymphoma Ward"/>
                    </concept>
                    <concept>
                        <code value="1230-2"/>
                        <display value="ONC Solid Tumor Ward"/>
                    </concept>
                    <concept>
                        <code value="1231-0"/>
                        <display value="ONC Hematopoietic Stem Cell Transplant Ward"/>
                    </concept>
                    <concept>
                        <code value="1232-8"/>
                        <display value="ONC General Hematology/Oncology Ward"/>
                    </concept>
                    <concept>
                        <code value="1233-6"/>
                        <display value="Pediatric Oncology Critical Care"/>
                    </concept>
                    <concept>
                        <code value="1234-4"/>
                        <display
                            value="Inpatient Pediatric Hematopoietic Stem Cell Transplant Oncology Ward"/>
                    </concept>
                    <concept>
                        <code value="1235-1"/>
                        <display value="Inpatient Pediatric General Hematology/Oncology Ward"/>
                    </concept>
                    <concept>
                        <code value="1227-8"/>
                        <display value="Oncology Step Down Unit (post-critical care)"/>
                    </concept>
                    <concept>
                        <code value="1236-9"/>
                        <display value="ONC Mixed Acuity Unit (all ages)"/>
                    </concept>
                    <concept>
                        <code value="1243-5"/>
                        <display value="Ambulatory Surgery Center"/>
                    </concept>
                    <concept>
                        <code value="1242-7"/>
                        <display value="Outpatient Operating Room/Suite_Attached"/>
                    </concept>
                    <concept>
                        <code value="1244-3"/>
                        <display value="Outpatient Operating Room/Suite_Detached"/>
                    </concept>
                    <concept>
                        <code value="1248-4"/>
                        <display value="Pediatric Outpatient Operating Room/Suite_Attached"/>
                    </concept>
                    <concept>
                        <code value="1249-2"/>
                        <display value="Pediatric Outpatient Operating Room/Suite_Detached"/>
                    </concept>
                    <concept>
                        <code value="1246-8"/>
                        <display value="Outpatient Ambulatory Pediatric Surgery Center"/>
                    </concept>
                    <concept>
                        <code value="1245-0"/>
                        <display value="Ambulatory Surgery Recovery Room"/>
                    </concept>
                    <concept>
                        <code value="1247-6"/>
                        <display value="Outpatient Ambulatory Plastic Surgery Center"/>
                    </concept>
                </include>
                <include>
                    <system value="urn:oid:2.16.840.1.113883.6.277"/>
                    <concept>
                        <code value="1206-2"/>
                        <display value="Float"/>
                    </concept>
                </include>
            </compose>
        </ValueSet>
    </contained>
    <version value="1"/>
    <title value="Surgical Site Infection"/>
    <status value="draft"/>
    <code>
        <system value="http://loinc.org"/>
        <code value="51897-7"/>
        <display value="Healthcare Associated Infection Report"/>
    </code>
    <item>
        <extension url="http://hl7.org/fhir/StructureDefinition/questionnaire-allowedProfile">
            <valueReference>
                <reference value="http://hl7.org/fhir/us/hai/StructureDefinition/hai-patient"/>
            </valueReference>
        </extension>
        <linkId value="6706"/>
        <text value="Patient"/>
        <type value="reference"/>
        <required value="true"/>
    </item>
    <item>
        <linkId value="1"/>
        <text value="Date of Event"/>
        <type value="date"/>
        <required value="true"/>
    </item>
    <item>
        <linkId value="2"/>
        <text value="NHSN Procedure Code"/>
        <type value="choice"/>
        <required value="true"/>
        <options>
            <reference value="#NHSNProcedureCategoryCode"/>
            <display value="NHSNProcedureCategoryCode"/>
        </options>
    </item>
    <item>
        <linkId value="3"/>
        <text value="ICD-10-PCS or CPT Procedure Code"/>
        <type value="choice"/>
        <required value="true"/>
        <options>
            <reference value="https://icd.codes"/>
            <display value="ICD-10-PCS"/>
        </options>
    </item>
    <item>
        <linkId value="4"/>
        <text value="Date of Procedure"/>
        <type value="date"/>
        <required value="true"/>
    </item>
    <item>
        <linkId value="5"/>
        <text value="Outpatient Procedure"/>
        <type value="boolean"/>
        <required value="true"/>
    </item>
    <item>
        <linkId value="6"/>
        <text value="MDRO Infection Surveillance"/>
        <type value="boolean"/>
        <required value="true"/>
    </item>
    <item>
        <linkId value="7"/>
        <text value="Date Admitted to Facility:"/>
        <type value="date"/>
        <required value="true"/>
    </item>
    <item>
        <linkId value="8"/>
        <text value="Location"/>
        <type value="choice"/>
        <required value="false"/>
        <options>
            <reference value="#nhsn-healthcare-service-location-code" />
            <display value="NHSNHealthcareServiceLocationCode" />
        </options>
    </item>
    <item>
        <linkId value="9392"/>
        <text value="Pathogen"/>
        <type value="group"/>
        <required value="false"/>
        <repeats value="true"/>
        <item>
            <linkId value="3745"/>
            <text value="Number"/>
            <type value="integer"/>
            <required value="true"/>
        </item>
        <item>
            <extension url="http://www.lantanagroup.com/fhir/questionnaire-item-note">
                <valueString value="Ex: Staphylococcus coagulase-negative"/>
            </extension>
            <linkId value="3139"/>
            <text value="Type"/>
            <type value="choice"/>
            <required value="true"/>
            <options>
                <reference value="#NHSNPathogenCode"/>
                <display value="NHSNPathogenCode"/>
            </options>
        </item>
        <item>
            <linkId value="4656"/>
            <text value="Susceptibility"/>
            <type value="group"/>
            <required value="true"/>
            <repeats value="true"/>
            <item>
                <extension url="http://www.lantanagroup.com/fhir/questionnaire-item-note">
                    <valueString value="Ex: DAPTO"/>
                </extension>
                <linkId value="6192"/>
                <text value="Test"/>
                <type value="choice"/>
                <required value="false"/>
                <options>
                    <reference value="#NHSNDrugSusceptibilityTestsCode"/>
                    <display value="NHSNDrugSusceptibilityTestsCode"/>
                </options>
            </item>
            <item>
                <extension url="http://www.lantanagroup.com/fhir/questionnaire-item-note">
                    <valueString value="Ex: S, NS, or N"/>
                </extension>
                <linkId value="8204"/>
                <text value="Interpretation"/>
                <type value="choice"/>
                <required value="false"/>
                <options>
                    <reference value="#NHSNDrugSusceptibilityFindingCode"/>
                    <display value="NHSNDrugSusceptibilityFindingCode"/>
                </options>
            </item>
        </item>
    </item>
</Questionnaire>