{"resourceType":"ImplementationGuide","id":"hl7-fhir-us-hai","meta":{"versionId":"29","lastUpdated":"2019-03-11T14:54:33.000+10:00"},"contained":[{"resourceType":"Binary","id":"7701","contentType":"text/html","data":"VGhpcyBpcyBhICoqdGVzdCoqIQ=="},{"resourceType":"Binary","id":"8135","contentType":"text/markdown","data":""},{"resourceType":"Binary","id":"5145","contentType":"text/markdown","data":"VGhlIGF1ZGllbmNlIGZvciB0aGlzIHdvcmsgaXMgYWxsIGRldmVsb3BlcnMgb2Ygc29mdHdhcmUgc3lzdGVtcyB3aG8gd2FudCB0byBlbmFibGUgdGhlaXIgc3lzdGVtcyBmb3IgcmVwb3J0aW5nIEhBSSBkYXRhIHRvIHRoZSBOSFNOLg=="},{"resourceType":"Binary","id":"7519","contentType":"text/markdown","data":""},{"resourceType":"Binary","id":"7347","contentType":"text/markdown","data":""},{"resourceType":"Binary","id":"6112","contentType":"text/markdown","data":""}],"extension":[{"extension":[{"url":"https://trifolia-on-fhir.lantanagroup.com/StructureDefinition/extension-ig-dependency-name","valueString":"uscore"},{"url":"https://trifolia-on-fhir.lantanagroup.com/StructureDefinition/extension-ig-dependency-location","valueUri":"http://hl7.org/fhir/us/core"},{"url":"https://trifolia-on-fhir.lantanagroup.com/StructureDefinition/extension-ig-dependency-version","valueString":"1.0.1"}],"url":"https://trifolia-on-fhir.lantanagroup.com/StructureDefinition/extension-ig-dependency"},{"url":"http://hl7.org/fhir/StructureDefinition/igpublisher-folder-resource","valueString":"C:\\Users\\minigrrl\\Documents\\Work\\SourceControl\\GitHub\\FHIR\\HAI\\source\\resources"},{"url":"http://hl7.org/fhir/StructureDefinition/igpublisher-folder-pages","valueString":"C:\\Users\\minigrrl\\Documents\\Work\\SourceControl\\GitHub\\FHIR\\HAI\\framework"},{"url":"http://hl7.org/fhir/StructureDefinition/igpublisher-folder-pages","valueString":"C:\\Users\\minigrrl\\Documents\\Work\\SourceControl\\GitHub\\FHIR\\HAI\\source\\pages"}],"url":"http://hl7.org/fhir/us/hai/ImplementationGuide/hl7-fhir-us-hai","version":"0.1.0","name":"Healthcare Associated Infection Reports, FHIR STU Release 2 - US Realm","status":"draft","experimental":false,"date":"2019-04-01T00:00:00+10:00","publisher":"HL7","contact":[{"name":"Sarah Gaunt","telecom":[{"system":"email","value":"sarah.gaunt@lantanagroup.com"}]}],"description":"This implementation guide (IG) is to specifies standards for electronic submission of Healthcare Associated Infection (HAI) reports to the National Healthcare Safety Network (NHSN) of the Centers for Disease Control and Prevention (CDC). This IG contains a library of FHIR profiles for electronic submission of HAI reports to the NHSN.\n\nAs reports are modified and new report types are defined, CDC and Health Level Seven (HL7) will develop and publish additional constraints.\n\nThroughout this process, CDC remains the authority on NHSN data collection protocols. When healthcare enterprises choose to participate in NHSN, they must report to CDC occurrences such as specific reportable procedures, even those without complications, and events such as a bloodstream infection, either confirmed by a positive blood culture or supported by a patients clinical symptoms. This specification opens the channel for data submission by all applications compliant with the data coding requirements defined here.\n\nNote that participation in the NHSN requires enrollment and filing of reporting plans, which are not defined by this specification. For an overview of NHSN and full information on NHSN participation requirements, see: [http://www.cdc.gov/nhsn](http://www.cdc.gov/nhsn). Provisions of the Public Health Service Act protect all data reported to NHSN from discovery through the Freedom of Information Act (FOIA).","packageId":"hl7-fhir-us-hai","license":"CC0-1.0","fhirVersion":["3.0.1","3.0.1"],"definition":{"grouping":[{"id":"p1","name":"base"}],"resource":[{"reference":{"reference":"StructureDefinition/hai-single-person-report-questionnaire","display":"hai-single-person-report-questionnaire"},"exampleBoolean":false,"groupingId":"p1"},{"reference":{"reference":"StructureDefinition/hai-single-person-report-questionnaire-response","display":"hai-single-person-report-questionnaire-response"},"exampleBoolean":false,"groupingId":"p1"},{"reference":{"reference":"CodeSystem/2.16.840.1.113883.6.259","display":"2.16.840.1.113883.6.259"},"exampleBoolean":false,"groupingId":"p1"},{"reference":{"reference":"CodeSystem/2.16.840.1.113883.6.277","display":"2.16.840.1.113883.6.277"},"exampleBoolean":false,"groupingId":"p1"},{"reference":{"reference":"ValueSet/2.16.840.1.113883.13.19","display":"2.16.840.1.113883.13.19"},"exampleBoolean":false,"groupingId":"p1"},{"reference":{"reference":"ValueSet/2.16.840.1.113883.13.20","display":"2.16.840.1.113883.13.20"},"exampleBoolean":false,"groupingId":"p1"},{"reference":{"reference":"ValueSet/2.16.840.1.113883.13.13","display":"2.16.840.1.113883.13.13"},"exampleBoolean":false,"groupingId":"p1"},{"reference":{"reference":"ValueSet/2.16.840.1.113883.13.15","display":"2.16.840.1.113883.13.15"},"exampleBoolean":false,"groupingId":"p1"},{"reference":{"reference":"ValueSet/nhsn-pathogen-ranking","display":"nhsn-pathogen-ranking"},"exampleBoolean":false,"groupingId":"p1"},{"reference":{"reference":"ValueSet/2.16.840.1.113883.13.16","display":"2.16.840.1.113883.13.16"},"exampleBoolean":false,"groupingId":"p1"},{"reference":{"reference":"ValueSet/2.16.840.1.114222.4.11.3195","display":"2.16.840.1.114222.4.11.3195"},"exampleBoolean":false,"groupingId":"p1"},{"reference":{"reference":"ValueSet/2.16.840.1.114222.4.11.3196","display":"2.16.840.1.114222.4.11.3196"},"exampleBoolean":false,"groupingId":"p1"},{"reference":{"reference":"Patient/hai-patient-1","display":"hai-patient-1.xml"},"exampleBoolean":true,"groupingId":"p1"},{"reference":{"reference":"Device/hai-authoring-device","display":"hai-authoring-device.xml"},"exampleBoolean":true,"groupingId":"p1"},{"reference":{"reference":"Questionnaire/hai-questionnaire-los-event","display":"hai-questionnaire-los-event.xml"},"exampleBoolean":true,"groupingId":"p1"},{"reference":{"reference":"QuestionnaireResponse/hai-questionnaireResponse-los-event","display":"hai-questionnaireResponse-los-event.xml"},"exampleBoolean":true,"groupingId":"p1"},{"reference":{"reference":"Bundle/hai-bundle-los-event","display":"hai-bundle-los-event.xml"},"exampleBoolean":true,"groupingId":"p1"},{"reference":{"reference":"StructureDefinition/hai-population-summary-questionnaire","display":"hai-population-summary-questionnaire"},"exampleBoolean":false,"groupingId":"p1"},{"reference":{"reference":"StructureDefinition/hai-population-summary-questionnaire-response","display":"hai-population-summary-questionnaire-response"},"exampleBoolean":false,"groupingId":"p1"},{"reference":{"reference":"Questionnaire/hai-questionnaire-opc-sdom-denom","display":"hai-questionnaire-opc-sdom-denom"},"exampleBoolean":true,"groupingId":"p1"},{"reference":{"reference":"QuestionnaireResponse/hai-questionnaireResponse-opc-sdom-denom","display":"hai-questionnaireResponse-opc-sdom-denom"},"exampleBoolean":true,"groupingId":"p1"},{"reference":{"reference":"Questionnaire/hai-questionnaire-los-denom","display":"Late Onset Sepsis/Meningitis Denominator"},"exampleBoolean":true,"groupingId":"p1"},{"reference":{"reference":"Questionnaire/hai-questionnaire-opc-sdom-event","display":"Outpatient Procedure Component Same Day Outcome Measures Event Report"},"exampleBoolean":true,"groupingId":"p1"},{"reference":{"reference":"ValueSet/2.16.840.1.113883.10.20.5.9.30","display":"NHSNLOS/MENDischargeDisposition"},"exampleBoolean":false,"groupingId":"p1"}],"page":{"extension":[{"url":"https://trifolia-on-fhir.lantanagroup.com/StructureDefinition/extension-ig-page-content","valueReference":{"reference":"#7701","display":"Page content 7701"}},{"url":"https://trifolia-on-fhir.lantanagroup.com/StructureDefinition/extension-ig-page-auto-generate-toc","valueBoolean":true}],"nameUrl":"home.md","title":"Healthcare Associated Infection Reports (FHIR)","generation":"generated","page":[{"extension":[{"url":"https://trifolia-on-fhir.lantanagroup.com/StructureDefinition/extension-ig-page-content","valueReference":{"reference":"#8135","display":"Page content 8135"}}],"nameUrl":"relationshipToAnotherStandard.md","title":"Relationship to Another Standard","generation":"html"},{"extension":[{"url":"https://trifolia-on-fhir.lantanagroup.com/StructureDefinition/extension-ig-page-content","valueReference":{"reference":"#5145","display":"Page content 5145"}}],"nameUrl":"audience.md","title":"Audience","generation":"html"},{"extension":[{"url":"https://trifolia-on-fhir.lantanagroup.com/StructureDefinition/extension-ig-page-content","valueReference":{"reference":"#7519","display":"Page content 7519"}}],"nameUrl":"designConsiderations.md","title":"Design Considerations","generation":"html"},{"extension":[{"url":"https://trifolia-on-fhir.lantanagroup.com/StructureDefinition/extension-ig-page-content","valueReference":{"reference":"#7347","display":"Page content 7347"}}],"nameUrl":"newPage1.md","title":"References","generation":"html"},{"extension":[{"url":"https://trifolia-on-fhir.lantanagroup.com/StructureDefinition/extension-ig-page-content","valueReference":{"reference":"#6112","display":"Page content 6112"}}],"nameUrl":"acknowledgements.md","title":"Acknowledgements","generation":"html"}]},"parameter":[{"code":"generate-json","value":"true"},{"code":"generate-xml","value":"true"},{"code":"generate-turtle","value":"true"}]}}