<?xml version="1.0" encoding="UTF-8"?>

<ImplementationGuide xmlns="http://hl7.org/fhir">
  <id value="hl7-fhir-us-hai"/>
  <meta>
    <versionId value="38"/>
    <lastUpdated value="2019-03-11T03:31:35.000-04:00"/>
  </meta>
  <contained>
    <Binary>
      <id value="7701"/>
      <contentType value="text/html"/>
      <data value="VGhpcyBpcyBhICoqdGVzdCoqIQ=="/>
    </Binary>
  </contained>
  <contained>
    <Binary>
      <id value="8135"/>
      <contentType value="text/markdown"/>
      <data value=""/>
    </Binary>
  </contained>
  <contained>
    <Binary>
      <id value="5145"/>
      <contentType value="text/markdown"/>
      <data value="VGhlIGF1ZGllbmNlIGZvciB0aGlzIHdvcmsgaXMgYWxsIGRldmVsb3BlcnMgb2Ygc29mdHdhcmUgc3lzdGVtcyB3aG8gd2FudCB0byBlbmFibGUgdGhlaXIgc3lzdGVtcyBmb3IgcmVwb3J0aW5nIEhBSSBkYXRhIHRvIHRoZSBOSFNOLg=="/>
    </Binary>
  </contained>
  <contained>
    <Binary>
      <id value="7519"/>
      <contentType value="text/markdown"/>
      <data value=""/>
    </Binary>
  </contained>
  <contained>
    <Binary>
      <id value="7347"/>
      <contentType value="text/markdown"/>
      <data value=""/>
    </Binary>
  </contained>
  <contained>
    <Binary>
      <id value="6112"/>
      <contentType value="text/markdown"/>
      <data value=""/>
    </Binary>
  </contained>
  <extension url="https://trifolia-on-fhir.lantanagroup.com/StructureDefinition/extension-ig-dependency">
    <extension url="https://trifolia-on-fhir.lantanagroup.com/StructureDefinition/extension-ig-dependency-name">
      <valueString value="uscore"/>
    </extension>
    <extension url="https://trifolia-on-fhir.lantanagroup.com/StructureDefinition/extension-ig-dependency-location">
      <valueUri value="http://hl7.org/fhir/us/core"/>
    </extension>
    <extension url="https://trifolia-on-fhir.lantanagroup.com/StructureDefinition/extension-ig-dependency-version">
      <valueString value="1.0.1"/>
    </extension>
  </extension>
  <extension url="http://hl7.org/fhir/StructureDefinition/igpublisher-folder-resource">
    <valueString value="C:\Windows\Temp\tmp-2524YLLsbIArh3qL\source\resources"/>
  </extension>
  <extension url="http://hl7.org/fhir/StructureDefinition/igpublisher-folder-pages">
    <valueString value="C:\Windows\Temp\tmp-2524YLLsbIArh3qL\framework"/>
  </extension>
  <extension url="http://hl7.org/fhir/StructureDefinition/igpublisher-folder-pages">
    <valueString value="C:\Windows\Temp\tmp-2524YLLsbIArh3qL\source\pages"/>
  </extension>
  <url value="http://hl7.org/fhir/us/hai/ImplementationGuide/hl7-fhir-us-hai"/>
  <version value="2.0.0"/>
  <name value="Healthcare Associated Infection Reports, FHIR STU Release 2 - US Realm"/>
  <status value="draft"/>
  <experimental value="false"/>
  <date value="2019-02-04T00:00:00-05:00"/>
  <publisher value="HL7"/>
  <contact>
    <name value="Sarah Gaunt"/>
    <telecom>
      <system value="email"/>
      <value value="sarah.gaunt@lantanagroup.com"/>
    </telecom>
  </contact>
  <description value="This implementation guide (IG) is to specifies standards for electronic submission of Healthcare Associated Infection (HAI) reports to the National Healthcare Safety Network (NHSN) of the Centers for Disease Control and Prevention (CDC). This IG contains a library of FHIR profiles for electronic submission of HAI reports to the NHSN.&#xA;&#xA;As reports are modified and new report types are defined, CDC and Health Level Seven (HL7) will develop and publish additional constraints.&#xA;&#xA;Throughout this process, CDC remains the authority on NHSN data collection protocols. When healthcare enterprises choose to participate in NHSN, they must report to CDC occurrences such as specific reportable procedures, even those without complications, and events such as a bloodstream infection, either confirmed by a positive blood culture or supported by a patients clinical symptoms. This specification opens the channel for data submission by all applications compliant with the data coding requirements defined here.&#xA;&#xA;Note that participation in the NHSN requires enrollment and filing of reporting plans, which are not defined by this specification. For an overview of NHSN and full information on NHSN participation requirements, see: [http://www.cdc.gov/nhsn](http://www.cdc.gov/nhsn). Provisions of the Public Health Service Act protect all data reported to NHSN from discovery through the Freedom of Information Act (FOIA)."/>
  <packageId value="hl7-fhir-us-hai-npm"/>
  <license value="CC0-1.0"/>
  <fhirVersion value="3.0.1"/>
  <fhirVersion value="3.0.1"/>
  <dependsOn id="uscore">
    <uri value="http://hl7.org/fhir/us/core"/>
    <packageId value="hl7.fhir.us.core"/>
    <version value="1.0.1"/>
  </dependsOn>
  <definition>
    <grouping id="p1">
      <name value="base"/>
    </grouping>
    <resource>
      <reference>
        <reference value="StructureDefinition/hai-single-person-report-questionnaire"/>
        <display value="Profile Questionnaire: HAI Single Person Report"/>
      </reference>
      <exampleBoolean value="false"/>
      <groupingId value="p1"/>
    </resource>
    <resource>
      <reference>
        <reference value="StructureDefinition/hai-single-person-report-questionnaire-response"/>
        <display value="Profile QuestionnaireResponse: HAI Single Person Report"/>
      </reference>
      <exampleBoolean value="false"/>
      <groupingId value="p1"/>
    </resource>
    <resource>
      <reference>
        <reference value="CodeSystem/2.16.840.1.113883.6.259"/>
        <display value="Code System: HSLOC"/>
      </reference>
      <exampleBoolean value="false"/>
      <groupingId value="p1"/>
    </resource>
    <resource>
      <reference>
        <reference value="CodeSystem/2.16.840.1.113883.6.277"/>
        <display value="Code System: cdcNHSN"/>
      </reference>
      <exampleBoolean value="false"/>
      <groupingId value="p1"/>
    </resource>
    <resource>
      <reference>
        <reference value="ValueSet/2.16.840.1.113883.13.19"/>
        <display value="Value Set: NHSNHealthcareServiceLocationCode"/>
      </reference>
      <exampleBoolean value="false"/>
      <groupingId value="p1"/>
    </resource>
    <resource>
      <reference>
        <reference value="ValueSet/2.16.840.1.113883.13.20"/>
        <display value="Value Set: NHSNInfectionTypeCode"/>
      </reference>
      <exampleBoolean value="false"/>
      <groupingId value="p1"/>
    </resource>
    <resource>
      <reference>
        <reference value="ValueSet/2.16.840.1.113883.13.13"/>
        <display value="Value Set: NHSNDrugSusceptibilityFindingCode"/>
      </reference>
      <exampleBoolean value="false"/>
      <groupingId value="p1"/>
    </resource>
    <resource>
      <reference>
        <reference value="ValueSet/2.16.840.1.113883.13.15"/>
        <display value="Value Set: NHSNDrugSusceptibilityTestsCode"/>
      </reference>
      <exampleBoolean value="false"/>
      <groupingId value="p1"/>
    </resource>
    <resource>
      <reference>
        <reference value="ValueSet/nhsn-pathogen-ranking"/>
        <display value="Value Set: nhsn-pathogen-ranking"/>
      </reference>
      <exampleBoolean value="false"/>
      <groupingId value="p1"/>
    </resource>
    <resource>
      <reference>
        <reference value="ValueSet/2.16.840.1.113883.13.16"/>
        <display value="Value Set: NHSNPathogenCode"/>
      </reference>
      <exampleBoolean value="false"/>
      <groupingId value="p1"/>
    </resource>
    <resource>
      <reference>
        <reference value="ValueSet/2.16.840.1.114222.4.11.3195"/>
        <display value="Value Set: NHSNCriterionOfDiagnosisCode"/>
      </reference>
      <exampleBoolean value="false"/>
      <groupingId value="p1"/>
    </resource>
    <resource>
      <reference>
        <reference value="ValueSet/2.16.840.1.114222.4.11.3196"/>
        <display value="Value Set: NHSNInfectionConditionCode"/>
      </reference>
      <exampleBoolean value="false"/>
      <groupingId value="p1"/>
    </resource>
    <resource>
      <reference>
        <reference value="Patient/hai-patient-1"/>
        <display value="Example Patient: HAI Patient 1"/>
      </reference>
      <exampleBoolean value="true"/>
      <groupingId value="p1"/>
    </resource>
    <resource>
      <reference>
        <reference value="Device/hai-authoring-device"/>
        <display value="Example Device: HAI Authoring Device"/>
      </reference>
      <exampleBoolean value="true"/>
      <groupingId value="p1"/>
    </resource>
    <resource>
      <reference>
        <reference value="Questionnaire/hai-questionnaire-los-event"/>
        <display value="Instance Questionnaire: Late Onset Sepsis/Meningitis Event (LOS)"/>
      </reference>
      <exampleBoolean value="true"/>
      <groupingId value="p1"/>
    </resource>
    <resource>
      <reference>
        <reference value="QuestionnaireResponse/hai-questionnaireResponse-los-event"/>
        <display value="Instance QuestionnaireResponse: hai-questionnaireResponse-los-event.xml"/>
      </reference>
      <exampleBoolean value="true"/>
      <groupingId value="p1"/>
    </resource>
    <resource>
      <reference>
        <reference value="Bundle/hai-bundle-los-event"/>
        <display value="Example Bundle: HAI LOS Event"/>
      </reference>
      <exampleBoolean value="true"/>
      <groupingId value="p1"/>
    </resource>
    <resource>
      <reference>
        <reference value="StructureDefinition/hai-population-summary-questionnaire"/>
        <display value="Profile Questionnaire: HAI Population Summary"/>
      </reference>
      <exampleBoolean value="false"/>
      <groupingId value="p1"/>
    </resource>
    <resource>
      <reference>
        <reference value="StructureDefinition/hai-population-summary-questionnaire-response"/>
        <display value="Profile Questionnaire Response: HAI Population Summary"/>
      </reference>
      <exampleBoolean value="false"/>
      <groupingId value="p1"/>
    </resource>
    <resource>
      <reference>
        <reference value="Questionnaire/hai-questionnaire-opc-sdom-denom"/>
        <display value="Instance Questionnaire: Outpatient Procedure Component Denominator for Same Day Outcome Measures Report"/>
      </reference>
      <exampleBoolean value="true"/>
      <groupingId value="p1"/>
    </resource>
    <resource>
      <reference>
        <reference value="QuestionnaireResponse/hai-questionnaireResponse-opc-sdom-denom"/>
        <display value="Instance QuestionnaireResponse:hai-questionnaireResponse-opc-sdom-denom"/>
      </reference>
      <exampleBoolean value="true"/>
      <groupingId value="p1"/>
    </resource>
    <resource>
      <reference>
        <reference value="Questionnaire/hai-questionnaire-los-denom"/>
        <display value="Instance Questionnaire: Late Onset Sepsis/Meningitis Denominator"/>
      </reference>
      <exampleBoolean value="true"/>
      <groupingId value="p1"/>
    </resource>
    <resource>
      <reference>
        <reference value="Questionnaire/hai-questionnaire-opc-sdom-event"/>
        <display value="Instance Questionnaire: Outpatient Procedure Component Same Day Outcome Measures Event"/>
      </reference>
      <exampleBoolean value="true"/>
      <groupingId value="p1"/>
    </resource>
    <resource>
      <reference>
        <reference value="ValueSet/2.16.840.1.113883.10.20.5.9.30"/>
        <display value="Value Set: NHSNLOS/MENDischargeDisposition"/>
      </reference>
      <exampleBoolean value="false"/>
      <groupingId value="p1"/>
    </resource>
    <page>
      <extension url="https://trifolia-on-fhir.lantanagroup.com/StructureDefinition/extension-ig-page-content">
        <valueReference>
          <reference value="#7701"/>
          <display value="Page content 7701"/>
        </valueReference>
      </extension>
      <extension url="https://trifolia-on-fhir.lantanagroup.com/StructureDefinition/extension-ig-page-auto-generate-toc">
        <valueBoolean value="true"/>
      </extension>
      <nameUrl value="home.md"/>
      <title value="Healthcare Associated Infection Reports (FHIR)"/>
      <generation value="generated"/>
      <page>
        <extension url="https://trifolia-on-fhir.lantanagroup.com/StructureDefinition/extension-ig-page-content">
          <valueReference>
            <reference value="#8135"/>
            <display value="Page content 8135"/>
          </valueReference>
        </extension>
        <nameUrl value="relationshipToAnotherStandard.md"/>
        <title value="Relationship to Another Standard"/>
        <generation value="html"/>
      </page>
      <page>
        <extension url="https://trifolia-on-fhir.lantanagroup.com/StructureDefinition/extension-ig-page-content">
          <valueReference>
            <reference value="#5145"/>
            <display value="Page content 5145"/>
          </valueReference>
        </extension>
        <nameUrl value="audience.md"/>
        <title value="Audience"/>
        <generation value="html"/>
      </page>
      <page>
        <extension url="https://trifolia-on-fhir.lantanagroup.com/StructureDefinition/extension-ig-page-content">
          <valueReference>
            <reference value="#7519"/>
            <display value="Page content 7519"/>
          </valueReference>
        </extension>
        <nameUrl value="designConsiderations.md"/>
        <title value="Design Considerations"/>
        <generation value="html"/>
      </page>
      <page>
        <extension url="https://trifolia-on-fhir.lantanagroup.com/StructureDefinition/extension-ig-page-content">
          <valueReference>
            <reference value="#7347"/>
            <display value="Page content 7347"/>
          </valueReference>
        </extension>
        <nameUrl value="references.md"/>
        <title value="References"/>
        <generation value="html"/>
      </page>
      <page>
        <extension url="https://trifolia-on-fhir.lantanagroup.com/StructureDefinition/extension-ig-page-content">
          <valueReference>
            <reference value="#6112"/>
            <display value="Page content 6112"/>
          </valueReference>
        </extension>
        <nameUrl value="acknowledgements.md"/>
        <title value="Acknowledgements"/>
        <generation value="html"/>
      </page>
    </page>
    <parameter>
      <code value="generate-json"/>
      <value value="true"/>
    </parameter>
    <parameter>
      <code value="generate-xml"/>
      <value value="true"/>
    </parameter>
    <parameter>
      <code value="generate-turtle"/>
      <value value="true"/>
    </parameter>
  </definition>
</ImplementationGuide>